# wireless pH sensor data log
# Date: 20171015_17_13_06
# Temperature (â„ƒ), Voltage of RE (mV), Voltage of WE_Cl after TIA (mV), Voltage of WE_pH (mV), Free Cl Current (nA), pH Voltage (mV), Free Cl (ppm), pH Value
# 
27.75    1499.5    1499.0    1289.375    0.6097560975609756    -210.125    -0.219393130307    6.14
-1000.0    1499.25    1499.625    1288.75    -0.4573170731707317    -210.5    -0.229152996843    6.49
-1000.0    1499.25    1499.75    1285.375    -0.6097560975609756    -213.875    -0.251380777445    6.84
-0.06    1499.5    1499.125    1286.125    0.4573170731707317    -213.375    -0.305318397273    7.21
27.75    1499.25    1499.625    1286.75    -0.4573170731707317    -212.5    -0.426196189357    7.58
-1000.0    1499.25    1499.625    1285.5    -0.4573170731707317    -213.75    -0.732206459529    7.96
-1000.0    1499.25    1499.625    1286.875    -0.4573170731707317    -212.375    -1.46645875804    8.34
-1000.0    1499.25    1499.75    1290.375    -0.6097560975609756    -208.875    -3.22842016231    8.72
-1000.0    1499.25    1499.625    1291.125    -0.4573170731707317    -208.125    -7.2927224625    9.09
-0.06    1499.5    1499.125    1285.0    0.4573170731707317    -214.5    -16.823175827    9.46
27.75    1499.25    1499.625    1282.375    -0.4573170731707317    -216.875    -39.8147226581    9.84
-1000.0    1499.25    1499.625    1286.375    -0.4573170731707317    -212.875    -40.7769562927    9.85
-1000.0    1499.25    1499.5    1304.5    -0.3048780487804878    -194.75    -40.7769562927    9.85
-1000.0    1499.25    1499.625    1308.25    -0.4573170731707317    -191.0    -38.0583652431    9.82
-1000.0    1499.25    1499.625    1283.375    -0.4573170731707317    -215.875    -34.756547267    9.78
-1000.0    1499.25    1499.625    1287.0    -0.4573170731707317    -212.25    -35.5613629946    9.79
27.75    1499.5    1499.125    1284.25    0.4573170731707317    -215.25    -34.55815559    9.78
27.75    1499.5    1499.75    1285.25    -0.3048780487804878    -214.25    -33.5594061502    9.77
-1000.0    1499.25    1499.75    1287.75    -0.6097560975609756    -211.5    -34.3269739909    9.78
-0.06    1499.5    1499.125    1286.25    0.4573170731707317    -213.25    -35.1268238584    9.79
27.75    1499.25    1499.625    1313.875    -0.4573170731707317    -185.375    -34.1437891672    9.78
