# wireless pH sensor data log
# Date: 20171015_17_06_00
# Temperature (â„ƒ), Voltage of RE (mV), Voltage of WE_Cl after TIA (mV), Voltage of WE_pH (mV), Free Cl Current (nA), pH Voltage (mV), Free Cl (ppm), pH Value
# 
29.56    1499.5    1499.625    1262.375    -0.1524390243902439    -237.125    -0.219393130307    6.14
29.56    1499.5    1499.0    1264.5    0.6097560975609756    -235.0    -0.225971333376    6.53
29.5    1499.5    1499.375    1264.5    0.1524390243902439    -235.0    -0.249070484702    6.92
29.5    1499.25    1499.75    1261.75    -0.6097560975609756    -237.5    -0.315304758852    7.32
-1000.0    1499.25    1499.75    1263.125    -0.6097560975609756    -236.125    -0.515283033126    7.75
-1000.0    1499.25    1499.625    1262.625    -0.4573170731707317    -236.625    -1.01511079316    8.16
-1000.0    1499.25    1499.625    1261.125    -0.4573170731707317    -238.125    -2.34906221407    8.58
-1000.0    1499.25    1499.625    1261.5    -0.4573170731707317    -237.75    -5.85903981659    9.0
-0.06    1499.5    1499.125    1262.375    0.4573170731707317    -237.125    -15.0949331001    9.42
29.44    1499.5    1499.625    1263.625    -0.1524390243902439    -235.875    -38.1997309636    9.83
-1000.0    1499.25    1499.625    1262.375    -0.4573170731707317    -236.875    -100.174189027    10.25
-0.06    1499.5    1499.125    1262.0    0.4573170731707317    -237.5    -100.202012253    10.25
-1000.0    1499.125    1499.625    1264.75    -0.6097560975609756    -234.375    -100.215923867    10.25
-1000.0    1499.25    1499.625    1274.125    -0.4573170731707317    -225.125    -100.285481934    10.25
-1000.0    1499.25    1499.625    1272.125    -0.4573170731707317    -227.125    -95.7673192008    10.23
-0.06    1499.5    1499.0    1270.625    0.6097560975609756    -228.875    -91.4531028708    10.21
-1000.0    1499.25    1499.625    1267.875    -0.4573170731707317    -231.375    -89.2889705026    10.2
-1000.0    1499.375    1499.75    1268.5    -0.4573170731707317    -230.875    -87.2609071367    10.19
-1000.0    1499.25    1499.75    1268.75    -0.6097560975609756    -230.5    -85.2790081291    10.18
-0.06    1499.375    1499.125    1269.875    0.3048780487804878    -229.5    -83.4232525126    10.17
-1000.0    1499.375    1499.75    1290.0    -0.4573170731707317    -209.375    -79.6441316649    10.15
-1000.0    1499.375    1499.75    1277.375    -0.4573170731707317    -222.0    -72.6533356814    10.11
-1000.0    1499.25    1499.75    1276.0    -0.6097560975609756    -223.25    -67.8734367073    10.08
-1000.0    1499.25    1499.75    1277.625    -0.6097560975609756    -221.625    -64.8273442173    10.06
-1000.0    1499.25    1499.625    1266.5    -0.4573170731707317    -232.75    -63.3648891059    10.05
29.31    1499.5    1499.125    1266.75    0.4573170731707317    -232.75    -62.9303492241    10.05
-1000.0    1499.25    1499.625    1267.375    -0.4573170731707317    -231.875    -64.4006986297    10.06
29.25    1499.5    1499.125    1266.125    0.4573170731707317    -233.375    -62.524336642    10.05
29.25    1499.25    1499.75    1265.875    -0.6097560975609756    -233.375    -62.0722039405    10.05
-1000.0    1499.25    1499.625    1267.25    -0.4573170731707317    -232.0    -62.0722039405    10.05
-1000.0    1499.375    1499.625    1266.25    -0.3048780487804878    -233.125    -63.5578829846    10.06
-0.06    1499.5    1499.125    1269.5    0.4573170731707317    -230.0    -69.6625971073    10.1
29.25    1499.5    1499.625    1267.375    -0.1524390243902439    -232.125    -69.1672520244    10.1
-1000.0    1499.25    1499.625    1268.375    -0.4573170731707317    -230.875    -72.3884342603    10.12
-1000.0    1499.25    1499.625    1268.75    -0.4573170731707317    -230.5    -74.0601355458    10.13
-1000.0    1499.25    1499.625    1267.75    -0.4573170731707317    -231.5    -74.0601355458    10.13
-1000.0    1499.375    1499.75    1267.375    -0.4573170731707317    -232.0    -74.1218543828    10.13
-1000.0    1499.375    1499.75    1266.75    -0.4573170731707317    -232.625    -74.1218543828    10.13
29.25    1499.5    1499.0    1267.75    0.6097560975609756    -231.75    -72.0511101622    10.12
-1000.0    1499.25    1499.625    1267.5    -0.4573170731707317    -231.75    -70.3369057156    10.11
29.19    1499.5    1499.125    1275.375    0.4573170731707317    -224.125    -69.9087918171    10.11
